key_resp.keys,key_resp.rt,key_resp.duration,participant,date,expName,psychopyVersion,OS,frameRate,Response.text,accept.keys,accept.corr,accept.rt,accept.duration,recall_loop.thisRepN,recall_loop.thisTrialN,recall_loop.thisN,recall_loop.thisIndex,recall_loop.ran,Word1,WORD_length1,Emo_condition,length_group_emo,Word2,WORD_length2,Ima_condition,length_group_ima
return,1.96,,AN95NS100724,2024-07-10_10h16.59.353,SNORE_recall_online_non_nature,2023.1.3,MacIntel,62.5,,,,,,,,,,,,,,,,,,
,,,AN95NS100724,2024-07-10_10h16.59.353,SNORE_recall_online_non_nature,2023.1.3,MacIntel,62.5,"Ohrfeige
","[""return""]",0,[7.117000000000001],[null],0,0,0,31,1,Ereignis,8,emo_mid,long_word,Ohrfeige,8,ima_high,long_word
,,,AN95NS100724,2024-07-10_10h16.59.353,SNORE_recall_online_non_nature,2023.1.3,MacIntel,62.5,"Sandwich
","[""return""]",0,[2.7929999999999993],[null],0,1,1,9,1,Vorrecht,8,emo_mid,long_word,Sandwich,8,ima_high,long_word
,,,AN95NS100724,2024-07-10_10h16.59.353,SNORE_recall_online_non_nature,2023.1.3,MacIntel,62.5,"Karren
","[""return""]",0,[6.157000000000004],[null],0,2,2,26,1,Tube,4,emo_mid,short_word,Karren,6,ima_high,short_word
,,,AN95NS100724,2024-07-10_10h16.59.353,SNORE_recall_online_non_nature,2023.1.3,MacIntel,62.5,"Flöte
","[""return""]",0,[3.442999999999998],[null],0,3,3,18,1,Korken,6,emo_mid,short_word,Flöte,5,ima_high,short_word
,,,AN95NS100724,2024-07-10_10h16.59.353,SNORE_recall_online_non_nature,2023.1.3,MacIntel,62.5,"Durchfall
","[""return""]",0,[3.4569999999999936],[null],0,4,4,19,1,Schimmer,8,emo_mid,long_word,Durchfall,9,ima_high,long_word
,,,AN95NS100724,2024-07-10_10h16.59.353,SNORE_recall_online_non_nature,2023.1.3,MacIntel,62.5,"Haus
","[""return""]",0,[2.176000000000002],[null],0,5,5,3,1,Kelch,5,emo_mid,short_word,Haus,4,ima_high,short_word
,,,AN95NS100724,2024-07-10_10h16.59.353,SNORE_recall_online_non_nature,2023.1.3,MacIntel,62.5,"Napf
","[""return""]",0,[2.0080000000000027],[null],0,6,6,6,1,Tuch,4,emo_mid,short_word,Napf,4,ima_high,short_word
,,,AN95NS100724,2024-07-10_10h16.59.353,SNORE_recall_online_non_nature,2023.1.3,MacIntel,62.5,"Büste
","[""return""]",0,[2.7579999999999956],[null],0,7,7,20,1,Stufe,5,emo_mid,short_word,Büste,5,ima_high,short_word
,,,AN95NS100724,2024-07-10_10h16.59.353,SNORE_recall_online_non_nature,2023.1.3,MacIntel,62.5,"Backofen
","[""return""]",0,[3.6270000000000024],[null],0,8,8,15,1,Kuhstall,8,emo_mid,long_word,Backofen,8,ima_high,long_word
,,,AN95NS100724,2024-07-10_10h16.59.353,SNORE_recall_online_non_nature,2023.1.3,MacIntel,62.5,"Ambulanz
","[""return""]",0,[3.629000000000005],[null],0,9,9,33,1,Triangel,8,emo_mid,long_word,Ambulanz,8,ima_high,long_word
,,,AN95NS100724,2024-07-10_10h16.59.353,SNORE_recall_online_non_nature,2023.1.3,MacIntel,62.5,"Krug
","[""return""]",0,[9.463999999999999],[null],0,10,10,16,1,Hürde,5,emo_mid,short_word,Krug,4,ima_high,short_word
,,,AN95NS100724,2024-07-10_10h16.59.353,SNORE_recall_online_non_nature,2023.1.3,MacIntel,62.5,"Kappe
","[""return""]",0,[2.2079999999999984],[null],0,11,11,2,1,Bagger,6,emo_mid,short_word,Kappe,5,ima_high,short_word
,,,AN95NS100724,2024-07-10_10h16.59.353,SNORE_recall_online_non_nature,2023.1.3,MacIntel,62.5,"Darm
","[""return""]",0,[1.8250000000000028],[null],0,12,12,29,1,Notiz,5,emo_mid,short_word,Darm,4,ima_high,short_word
,,,AN95NS100724,2024-07-10_10h16.59.353,SNORE_recall_online_non_nature,2023.1.3,MacIntel,62.5,"Möbelstück
","[""return""]",0,[4.4069999999999965],[null],0,13,13,12,1,Polohemd,8,emo_mid,long_word,Möbelstück,10,ima_high,long_word
,,,AN95NS100724,2024-07-10_10h16.59.353,SNORE_recall_online_non_nature,2023.1.3,MacIntel,62.5,"Karrussel
","[""return""]",0,[4.041999999999987],[null],0,14,14,4,1,Reflektor,9,emo_mid,long_word,Karussell,9,ima_high,long_word
,,,AN95NS100724,2024-07-10_10h16.59.353,SNORE_recall_online_non_nature,2023.1.3,MacIntel,62.5,"Bahre
","[""return""]",0,[3.923000000000002],[null],0,15,15,35,1,Umwelt,6,emo_mid,short_word,Bahre,5,ima_high,short_word
,,,AN95NS100724,2024-07-10_10h16.59.353,SNORE_recall_online_non_nature,2023.1.3,MacIntel,62.5,"Kompott
","[""return""]",0,[21.839],[null],0,16,16,28,1,Andeutung,9,emo_mid,long_word,Schatulle,9,ima_high,long_word
,,,AN95NS100724,2024-07-10_10h16.59.353,SNORE_recall_online_non_nature,2023.1.3,MacIntel,62.5,"Tagebuch
","[""return""]",0,[2.7600000000000193],[null],0,17,17,1,1,Änderung,8,emo_mid,long_word,Tagebuch,8,ima_high,long_word
,,,AN95NS100724,2024-07-10_10h16.59.353,SNORE_recall_online_non_nature,2023.1.3,MacIntel,62.5,"Springseil
","[""return""]",0,[4.99199999999999],[null],0,18,18,8,1,Dämmerung,9,emo_mid,long_word,Springseil,10,ima_high,long_word
,,,AN95NS100724,2024-07-10_10h16.59.353,SNORE_recall_online_non_nature,2023.1.3,MacIntel,62.5,"Handtuch
","[""return""]",0,[5.557999999999993],[null],0,19,19,21,1,Gegenteil,9,emo_mid,long_word,Handtuch,8,ima_high,long_word
,,,AN95NS100724,2024-07-10_10h16.59.353,SNORE_recall_online_non_nature,2023.1.3,MacIntel,62.5,"Dachboden
","[""return""]",0,[3.092000000000013],[null],0,20,20,25,1,Anleitung,9,emo_mid,long_word,Dachboden,9,ima_high,long_word
,,,AN95NS100724,2024-07-10_10h16.59.353,SNORE_recall_online_non_nature,2023.1.3,MacIntel,62.5,"Waldhaus
","[""return""]",0,[4.224999999999994],[null],0,21,21,34,1,Stiefel,7,emo_mid,long_word,Waldhaus,8,ima_high,long_word
,,,AN95NS100724,2024-07-10_10h16.59.353,SNORE_recall_online_non_nature,2023.1.3,MacIntel,62.5,"Dreck
","[""return""]",0,[2.1069999999999993],[null],0,22,22,0,1,Wodka,5,emo_mid,short_word,Dreck,5,ima_high,short_word
,,,AN95NS100724,2024-07-10_10h16.59.353,SNORE_recall_online_non_nature,2023.1.3,MacIntel,62.5,"Handy
","[""return""]",0,[2.306999999999988],[null],0,23,23,7,1,Eis,3,emo_mid,short_word,Handy,5,ima_high,short_word
,,,AN95NS100724,2024-07-10_10h16.59.353,SNORE_recall_online_non_nature,2023.1.3,MacIntel,62.5,"Gondel
","[""return""]",0,[7.50800000000001],[null],0,24,24,10,1,Tat,3,emo_mid,short_word,Gondel,6,ima_high,short_word
,,,AN95NS100724,2024-07-10_10h16.59.353,SNORE_recall_online_non_nature,2023.1.3,MacIntel,62.5,"Roller
","[""return""]",0,[7.728999999999985],[null],0,25,25,32,1,Kanne,5,emo_mid,short_word,Roller,6,ima_high,short_word
,,,AN95NS100724,2024-07-10_10h16.59.353,SNORE_recall_online_non_nature,2023.1.3,MacIntel,62.5,"Deckel
","[""return""]",0,[3.3249999999999886],[null],0,26,26,23,1,Gang,4,emo_mid,short_word,Deckel,6,ima_high,short_word
,,,AN95NS100724,2024-07-10_10h16.59.353,SNORE_recall_online_non_nature,2023.1.3,MacIntel,62.5,"Schloss
","[""return""]",0,[2.475999999999999],[null],0,27,27,27,1,Nagellack,9,emo_mid,long_word,Schloss,7,ima_high,long_word
,,,AN95NS100724,2024-07-10_10h16.59.353,SNORE_recall_online_non_nature,2023.1.3,MacIntel,62.5,"Schleife
","[""return""]",0,[3.8950000000000102],[null],0,28,28,24,1,Automat,7,emo_mid,long_word,Schleife,8,ima_high,long_word
,,,AN95NS100724,2024-07-10_10h16.59.353,SNORE_recall_online_non_nature,2023.1.3,MacIntel,62.5,"Doppelbett
","[""return""]",0,[4.093000000000018],[null],0,29,29,22,1,Staffelei,9,emo_mid,long_word,Doppelbett,10,ima_high,long_word
,,,AN95NS100724,2024-07-10_10h16.59.353,SNORE_recall_online_non_nature,2023.1.3,MacIntel,62.5,"Chor
","[""return""]",0,[3.7079999999999984],[null],0,30,30,30,1,Filter,5,emo_mid,short_word,Chor,4,ima_high,short_word
,,,AN95NS100724,2024-07-10_10h16.59.353,SNORE_recall_online_non_nature,2023.1.3,MacIntel,62.5,"Flut
","[""return""]",0,[3.7120000000000175],[null],0,31,31,13,1,Akt,3,emo_mid,short_word,Flut,4,ima_high,short_word
,,,AN95NS100724,2024-07-10_10h16.59.353,SNORE_recall_online_non_nature,2023.1.3,MacIntel,62.5,"Kugel
","[""return""]",0,[4.112000000000023],[null],0,32,32,14,1,Praxis,6,emo_mid,short_word,Kugel,5,ima_high,short_word
,,,AN95NS100724,2024-07-10_10h16.59.353,SNORE_recall_online_non_nature,2023.1.3,MacIntel,62.5,"Stecknadel
","[""return""]",0,[3.5749999999999886],[null],0,33,33,17,1,Werbung,7,emo_mid,long_word,Stecknadel,10,ima_high,long_word
,,,AN95NS100724,2024-07-10_10h16.59.353,SNORE_recall_online_non_nature,2023.1.3,MacIntel,62.5,"Parade
","[""return""]",0,[2.790999999999997],[null],0,34,34,11,1,Ironie,6,emo_mid,short_word,Parade,6,ima_high,short_word
,,,AN95NS100724,2024-07-10_10h16.59.353,SNORE_recall_online_non_nature,2023.1.3,MacIntel,62.5,"Malkasten
","[""return""]",0,[4.560000000000002],[null],0,35,35,5,1,Entstehung,10,emo_mid,long_word,Malkasten,9,ima_high,long_word
,,,AN95NS100724,2024-07-10_10h16.59.353,SNORE_recall_online_non_nature,2023.1.3,MacIntel,62.5,,,,,,,,,,,,,,,,,,
