key_resp.keys,key_resp.rt,key_resp.duration,participant,date,expName,psychopyVersion,OS,frameRate,Response.text,accept.keys,accept.corr,accept.rt,accept.duration,recall_loop.thisRepN,recall_loop.thisTrialN,recall_loop.thisN,recall_loop.thisIndex,recall_loop.ran,Word1,WORD_length1,Emo_condition,length_group_emo,Word2,WORD_length2,Ima_condition,length_group_ima
return,6.9735,,TEST,2024-07-18_10h42.45.960,SNORE_recall_online_non_nature,2023.1.3,MacIntel,60.24096386,,,,,,,,,,,,,,,,,,
,,,TEST,2024-07-18_10h42.45.960,SNORE_recall_online_non_nature,2023.1.3,MacIntel,60.24096386,springseil,"[""return""]",0,[20.078799999982117],[null],0,0,0,8,1,Dämmerung,9,emo_mid,long_word,Springseil,10,ima_high,long_word
,,,TEST,2024-07-18_10h42.45.960,SNORE_recall_online_non_nature,2023.1.3,MacIntel,60.24096386,Flut,"[""return""]",0,[2.5566999999880764],[null],0,1,1,13,1,Akt,3,emo_mid,short_word,Flut,4,ima_high,short_word
,,,TEST,2024-07-18_10h42.45.960,SNORE_recall_online_non_nature,2023.1.3,MacIntel,60.24096386,Dreck,"[""return""]",0,[2.363500000000002],[null],0,2,2,0,1,Wodka,5,emo_mid,short_word,Dreck,5,ima_high,short_word
,,,TEST,2024-07-18_10h42.45.960,SNORE_recall_online_non_nature,2023.1.3,MacIntel,60.24096386,Sandwich,"[""return""]",0,[9.13059999999404],[null],0,3,3,9,1,Vorrecht,8,emo_mid,long_word,Sandwich,8,ima_high,long_word
,,,TEST,2024-07-18_10h42.45.960,SNORE_recall_online_non_nature,2023.1.3,MacIntel,60.24096386,Ohrfeige,"[""return""]",0,[3.744100000023842],[null],0,4,4,31,1,Ereignis,8,emo_mid,long_word,Ohrfeige,8,ima_high,long_word
,,,TEST,2024-07-18_10h42.45.960,SNORE_recall_online_non_nature,2023.1.3,MacIntel,60.24096386,Dachboden,"[""return""]",0,[7.423099999994044],[null],0,5,5,25,1,Anleitung,9,emo_mid,long_word,Dachboden,9,ima_high,long_word
,,,TEST,2024-07-18_10h42.45.960,SNORE_recall_online_non_nature,2023.1.3,MacIntel,60.24096386,Kappe,"[""return""]",0,[2.5387999999821247],[null],0,6,6,2,1,Bagger,6,emo_mid,short_word,Kappe,5,ima_high,short_word
,,,TEST,2024-07-18_10h42.45.960,SNORE_recall_online_non_nature,2023.1.3,MacIntel,60.24096386,Waldhaus,"[""return""]",0,[5.681900000005953],[null],0,7,7,34,1,Stiefel,7,emo_mid,long_word,Waldhaus,8,ima_high,long_word
,,,TEST,2024-07-18_10h42.45.960,SNORE_recall_online_non_nature,2023.1.3,MacIntel,60.24096386,Flöte,"[""return""]",0,[2.9076999999880684],[null],0,8,8,18,1,Korken,6,emo_mid,short_word,Flöte,5,ima_high,short_word
,,,TEST,2024-07-18_10h42.45.960,SNORE_recall_online_non_nature,2023.1.3,MacIntel,60.24096386,Stecknadel,"[""return""]",0,[7.873699999988077],[null],0,9,9,17,1,Werbung,7,emo_mid,long_word,Stecknadel,10,ima_high,long_word
,,,TEST,2024-07-18_10h42.45.960,SNORE_recall_online_non_nature,2023.1.3,MacIntel,60.24096386,Durchfall,"[""return""]",0,[3.9810999999940293],[null],0,10,10,19,1,Schimmer,8,emo_mid,long_word,Durchfall,9,ima_high,long_word
,,,TEST,2024-07-18_10h42.45.960,SNORE_recall_online_non_nature,2023.1.3,MacIntel,60.24096386,Darm,"[""return""]",0,[13.97789999997616],[null],0,11,11,29,1,Notiz,5,emo_mid,short_word,Darm,4,ima_high,short_word
,,,TEST,2024-07-18_10h42.45.960,SNORE_recall_online_non_nature,2023.1.3,MacIntel,60.24096386,Gondel,"[""return""]",0,[7.812099999994018],[null],0,12,12,10,1,Tat,3,emo_mid,short_word,Gondel,6,ima_high,short_word
,,,TEST,2024-07-18_10h42.45.960,SNORE_recall_online_non_nature,2023.1.3,MacIntel,60.24096386,Doppelbett,"[""return""]",0,[4.327099999994033],[null],0,13,13,22,1,Staffelei,9,emo_mid,long_word,Doppelbett,10,ima_high,long_word
,,,TEST,2024-07-18_10h42.45.960,SNORE_recall_online_non_nature,2023.1.3,MacIntel,60.24096386,Kugel,"[""return""]",0,[2.826999999999998],[null],0,14,14,14,1,Praxis,6,emo_mid,short_word,Kugel,5,ima_high,short_word
,,,TEST,2024-07-18_10h42.45.960,SNORE_recall_online_non_nature,2023.1.3,MacIntel,60.24096386,Tagebuch,"[""return""]",0,[6.311299999982111],[null],0,15,15,1,1,Änderung,8,emo_mid,long_word,Tagebuch,8,ima_high,long_word
,,,TEST,2024-07-18_10h42.45.960,SNORE_recall_online_non_nature,2023.1.3,MacIntel,60.24096386,Backofen,"[""return""]",0,[6.818100000023833],[null],0,16,16,15,1,Kuhstall,8,emo_mid,long_word,Backofen,8,ima_high,long_word
,,,TEST,2024-07-18_10h42.45.960,SNORE_recall_online_non_nature,2023.1.3,MacIntel,60.24096386,Schleife,"[""return""]",0,[3.5528000000119278],[null],0,17,17,24,1,Automat,7,emo_mid,long_word,Schleife,8,ima_high,long_word
,,,TEST,2024-07-18_10h42.45.960,SNORE_recall_online_non_nature,2023.1.3,MacIntel,60.24096386,Kompott,"[""return""]",0,[10.544400000005965],[null],0,18,18,28,1,Andeutung,9,emo_mid,long_word,Schatulle,9,ima_high,long_word
,,,TEST,2024-07-18_10h42.45.960,SNORE_recall_online_non_nature,2023.1.3,MacIntel,60.24096386,Büste,"[""return""]",0,[4.388599999994057],[null],0,19,19,20,1,Stufe,5,emo_mid,short_word,Büste,5,ima_high,short_word
,,,TEST,2024-07-18_10h42.45.960,SNORE_recall_online_non_nature,2023.1.3,MacIntel,60.24096386,Chor,"[""return""]",0,[3.444299999982121],[null],0,20,20,30,1,Filter,5,emo_mid,short_word,Chor,4,ima_high,short_word
,,,TEST,2024-07-18_10h42.45.960,SNORE_recall_online_non_nature,2023.1.3,MacIntel,60.24096386,Schloss,"[""return""]",0,[7.194000000000017],[null],0,21,21,27,1,Nagellack,9,emo_mid,long_word,Schloss,7,ima_high,long_word
,,,TEST,2024-07-18_10h42.45.960,SNORE_recall_online_non_nature,2023.1.3,MacIntel,60.24096386,Deckel,"[""return""]",0,[3.2956000000238532],[null],0,22,22,23,1,Gang,4,emo_mid,short_word,Deckel,6,ima_high,short_word
,,,TEST,2024-07-18_10h42.45.960,SNORE_recall_online_non_nature,2023.1.3,MacIntel,60.24096386,Malkasten,"[""return""]",0,[6.143199999988099],[null],0,23,23,5,1,Entstehung,10,emo_mid,long_word,Malkasten,9,ima_high,long_word
,,,TEST,2024-07-18_10h42.45.960,SNORE_recall_online_non_nature,2023.1.3,MacIntel,60.24096386,Möbelstück,"[""return""]",0,[4.1400999999940495],[null],0,24,24,12,1,Polohemd,8,emo_mid,long_word,Möbelstück,10,ima_high,long_word
,,,TEST,2024-07-18_10h42.45.960,SNORE_recall_online_non_nature,2023.1.3,MacIntel,60.24096386,Parade,"[""return""]",0,[5.993900000005965],[null],0,25,25,11,1,Ironie,6,emo_mid,short_word,Parade,6,ima_high,short_word
,,,TEST,2024-07-18_10h42.45.960,SNORE_recall_online_non_nature,2023.1.3,MacIntel,60.24096386,Ambulanz,"[""return""]",0,[6.040999999999997],[null],0,26,26,33,1,Triangel,8,emo_mid,long_word,Ambulanz,8,ima_high,long_word
,,,TEST,2024-07-18_10h42.45.960,SNORE_recall_online_non_nature,2023.1.3,MacIntel,60.24096386,Karre,"[""return""]",0,[2.844900000005964],[null],0,27,27,26,1,Tube,4,emo_mid,short_word,Karren,6,ima_high,short_word
,,,TEST,2024-07-18_10h42.45.960,SNORE_recall_online_non_nature,2023.1.3,MacIntel,60.24096386,Haus,"[""return""]",0,[4.245099999994068],[null],0,28,28,3,1,Kelch,5,emo_mid,short_word,Haus,4,ima_high,short_word
,,,TEST,2024-07-18_10h42.45.960,SNORE_recall_online_non_nature,2023.1.3,MacIntel,60.24096386,Handy,"[""return""]",0,[3.3977999999821122],[null],0,29,29,7,1,Eis,3,emo_mid,short_word,Handy,5,ima_high,short_word
,,,TEST,2024-07-18_10h42.45.960,SNORE_recall_online_non_nature,2023.1.3,MacIntel,60.24096386,Bahre,"[""return""]",0,[3.4265000000000043],[null],0,30,30,35,1,Umwelt,6,emo_mid,short_word,Bahre,5,ima_high,short_word
,,,TEST,2024-07-18_10h42.45.960,SNORE_recall_online_non_nature,2023.1.3,MacIntel,60.24096386,Krug,"[""return""]",0,[4.442999999999984],[null],0,31,31,16,1,Hürde,5,emo_mid,short_word,Krug,4,ima_high,short_word
,,,TEST,2024-07-18_10h42.45.960,SNORE_recall_online_non_nature,2023.1.3,MacIntel,60.24096386,Karusell,"[""return""]",0,[7.7781999999880895],[null],0,32,32,4,1,Reflektor,9,emo_mid,long_word,Karussell,9,ima_high,long_word
,,,TEST,2024-07-18_10h42.45.960,SNORE_recall_online_non_nature,2023.1.3,MacIntel,60.24096386,Roller,"[""return""]",0,[24.82869999998806],[null],0,33,33,32,1,Kanne,5,emo_mid,short_word,Roller,6,ima_high,short_word
,,,TEST,2024-07-18_10h42.45.960,SNORE_recall_online_non_nature,2023.1.3,MacIntel,60.24096386,Handtuch,"[""return""]",0,[3.9967999999821586],[null],0,34,34,21,1,Gegenteil,9,emo_mid,long_word,Handtuch,8,ima_high,long_word
,,,TEST,2024-07-18_10h42.45.960,SNORE_recall_online_non_nature,2023.1.3,MacIntel,60.24096386,Napf,"[""return""]",0,[3.444000000000017],[null],0,35,35,6,1,Tuch,4,emo_mid,short_word,Napf,4,ima_high,short_word
,,,TEST,2024-07-18_10h42.45.960,SNORE_recall_online_non_nature,2023.1.3,MacIntel,60.24096386,,,,,,,,,,,,,,,,,,
