key_resp.keys,key_resp.rt,key_resp.duration,participant,date,expName,psychopyVersion,OS,frameRate,Response.text,accept.keys,accept.corr,accept.rt,accept.duration,recall_loop.thisRepN,recall_loop.thisTrialN,recall_loop.thisN,recall_loop.thisIndex,recall_loop.ran,Word1,WORD_length1,Emo_condition,length_group_emo,Word2,WORD_length2,Ima_condition,length_group_ima
return,5.3059,,TEST,2024-06-26_15h32.53.814,SNORE_recall_online_non_nature,2023.1.3,Win32,59.52380952,,,,,,,,,,,,,,,,,,
,,,TEST,2024-06-26_15h32.53.814,SNORE_recall_online_non_nature,2023.1.3,Win32,59.52380952,handtuch,"[""return""]",0,[6.578999999999999],[null],0,0,0,21,1,Gegenteil,9,emo_mid,long_word,Handtuch,8,ima_high,long_word
,,,TEST,2024-06-26_15h32.53.814,SNORE_recall_online_non_nature,2023.1.3,Win32,59.52380952,hinderniss,"[""return""]",0,[63.258299999952314],[null],0,1,1,34,1,Stiefel,7,emo_mid,long_word,Waldhaus,8,ima_high,long_word
,,,TEST,2024-06-26_15h32.53.814,SNORE_recall_online_non_nature,2023.1.3,Win32,59.52380952,parade,"[""return""]",0,[4.164999999999992],[null],0,2,2,11,1,Ironie,6,emo_mid,short_word,Parade,6,ima_high,short_word
,,,TEST,2024-06-26_15h32.53.814,SNORE_recall_online_non_nature,2023.1.3,Win32,59.52380952,dachboden,"[""return""]",0,[4.001200000047689],[null],0,3,3,25,1,Anleitung,9,emo_mid,long_word,Dachboden,9,ima_high,long_word
,,,TEST,2024-06-26_15h32.53.814,SNORE_recall_online_non_nature,2023.1.3,Win32,59.52380952,handy,"[""return""]",0,[4.689100000023842],[null],0,4,4,7,1,Eis,3,emo_mid,short_word,Handy,5,ima_high,short_word
,,,TEST,2024-06-26_15h32.53.814,SNORE_recall_online_non_nature,2023.1.3,Win32,59.52380952,?,"[""return""]",0,[15.613700000047686],[null],0,5,5,24,1,Automat,7,emo_mid,long_word,Schleife,8,ima_high,long_word
,,,TEST,2024-06-26_15h32.53.814,SNORE_recall_online_non_nature,2023.1.3,Win32,59.52380952,?,"[""return""]",0,[10.14089999997617],[null],0,6,6,26,1,Tube,4,emo_mid,short_word,Karren,6,ima_high,short_word
,,,TEST,2024-06-26_15h32.53.814,SNORE_recall_online_non_nature,2023.1.3,Win32,59.52380952,?,"[""return""]",0,[115.15220000004769],[null],0,7,7,5,1,Entstehung,10,emo_mid,long_word,Malkasten,9,ima_high,long_word
,,,TEST,2024-06-26_15h32.53.814,SNORE_recall_online_non_nature,2023.1.3,Win32,59.52380952,Ohrfeige,"[""return""]",0,[10.550999999999988],[null],0,8,8,31,1,Ereignis,8,emo_mid,long_word,Ohrfeige,8,ima_high,long_word
,,,TEST,2024-06-26_15h32.53.814,SNORE_recall_online_non_nature,2023.1.3,Win32,59.52380952,?,"[""return""]",0,[30.182600000023854],[null],0,9,9,13,1,Akt,3,emo_mid,short_word,Flut,4,ima_high,short_word
,,,TEST,2024-06-26_15h32.53.814,SNORE_recall_online_non_nature,2023.1.3,Win32,59.52380952,stecknadel,"[""return""]",0,[6.796600000023886],[null],0,10,10,17,1,Werbung,7,emo_mid,long_word,Stecknadel,10,ima_high,long_word
,,,TEST,2024-06-26_15h32.53.814,SNORE_recall_online_non_nature,2023.1.3,Win32,59.52380952,Springseil,"[""return""]",0,[6.447999999999979],[null],0,11,11,8,1,Dämmerung,9,emo_mid,long_word,Springseil,10,ima_high,long_word
,,,TEST,2024-06-26_15h32.53.814,SNORE_recall_online_non_nature,2023.1.3,Win32,59.52380952,Kappe,"[""return""]",0,[3.6333000000715288],[null],0,12,12,2,1,Bagger,6,emo_mid,short_word,Kappe,5,ima_high,short_word
,,,TEST,2024-06-26_15h32.53.814,SNORE_recall_online_non_nature,2023.1.3,Win32,59.52380952,?,"[""return""]",0,[36.420000000000016],[null],0,13,13,28,1,Andeutung,9,emo_mid,long_word,Schatulle,9,ima_high,long_word
,,,TEST,2024-06-26_15h32.53.814,SNORE_recall_online_non_nature,2023.1.3,Win32,59.52380952,?,"[""return""]",0,[20.61860000002389],[null],0,14,14,29,1,Notiz,5,emo_mid,short_word,Darm,4,ima_high,short_word
,,,TEST,2024-06-26_15h32.53.814,SNORE_recall_online_non_nature,2023.1.3,Win32,59.52380952,Stiefel,"[""return""]",0,[16.432999999999993],[null],0,15,15,16,1,Hürde,5,emo_mid,short_word,Krug,4,ima_high,short_word
,,,TEST,2024-06-26_15h32.53.814,SNORE_recall_online_non_nature,2023.1.3,Win32,59.52380952,Flöte,"[""return""]",0,[13.123300000071481],[null],0,16,16,18,1,Korken,6,emo_mid,short_word,Flöte,5,ima_high,short_word
,,,TEST,2024-06-26_15h32.53.814,SNORE_recall_online_non_nature,2023.1.3,Win32,59.52380952,Krankenwagen,"[""return""]",0,[11.48610000002384],[null],0,17,17,33,1,Triangel,8,emo_mid,long_word,Ambulanz,8,ima_high,long_word
,,,TEST,2024-06-26_15h32.53.814,SNORE_recall_online_non_nature,2023.1.3,Win32,59.52380952,Deckel,"[""return""]",0,[3.3716999999284667],[null],0,18,18,23,1,Gang,4,emo_mid,short_word,Deckel,6,ima_high,short_word
,,,TEST,2024-06-26_15h32.53.814,SNORE_recall_online_non_nature,2023.1.3,Win32,59.52380952,Chaos,"[""return""]",0,[5.655899999976157],[null],0,19,19,30,1,Filter,5,emo_mid,short_word,Chor,4,ima_high,short_word
,,,TEST,2024-06-26_15h32.53.814,SNORE_recall_online_non_nature,2023.1.3,Win32,59.52380952,Doppelbett,"[""return""]",0,[4.957799999952329],[null],0,20,20,22,1,Staffelei,9,emo_mid,long_word,Doppelbett,10,ima_high,long_word
,,,TEST,2024-06-26_15h32.53.814,SNORE_recall_online_non_nature,2023.1.3,Win32,59.52380952,Gondel,"[""return""]",0,[7.670899999976143],[null],0,21,21,10,1,Tat,3,emo_mid,short_word,Gondel,6,ima_high,short_word
,,,TEST,2024-06-26_15h32.53.814,SNORE_recall_online_non_nature,2023.1.3,Win32,59.52380952,Haus,"[""return""]",0,[11.254399999976158],[null],0,22,22,3,1,Kelch,5,emo_mid,short_word,Haus,4,ima_high,short_word
,,,TEST,2024-06-26_15h32.53.814,SNORE_recall_online_non_nature,2023.1.3,Win32,59.52380952,?,"[""return""]",0,[16.05680000007152],[null],0,23,23,4,1,Reflektor,9,emo_mid,long_word,Karussell,9,ima_high,long_word
,,,TEST,2024-06-26_15h32.53.814,SNORE_recall_online_non_nature,2023.1.3,Win32,59.52380952,Sumpf,"[""return""]",0,[12.107899999976155],[null],0,24,24,32,1,Kanne,5,emo_mid,short_word,Roller,6,ima_high,short_word
,,,TEST,2024-06-26_15h32.53.814,SNORE_recall_online_non_nature,2023.1.3,Win32,59.52380952,Büste,"[""return""]",0,[5.1249000000953515],[null],0,25,25,20,1,Stufe,5,emo_mid,short_word,Büste,5,ima_high,short_word
,,,TEST,2024-06-26_15h32.53.814,SNORE_recall_online_non_nature,2023.1.3,Win32,59.52380952,Backofen,"[""return""]",0,[26.16309999990466],[null],0,26,26,15,1,Kuhstall,8,emo_mid,long_word,Backofen,8,ima_high,long_word
,,,TEST,2024-06-26_15h32.53.814,SNORE_recall_online_non_nature,2023.1.3,Win32,59.52380952,Tagebuch,"[""return""]",0,[3.754799999952297],[null],0,27,27,1,1,Änderung,8,emo_mid,long_word,Tagebuch,8,ima_high,long_word
,,,TEST,2024-06-26_15h32.53.814,SNORE_recall_online_non_nature,2023.1.3,Win32,59.52380952,Sandwich,"[""return""]",0,[7.318100000023833],[null],0,28,28,9,1,Vorrecht,8,emo_mid,long_word,Sandwich,8,ima_high,long_word
,,,TEST,2024-06-26_15h32.53.814,SNORE_recall_online_non_nature,2023.1.3,Win32,59.52380952,Napf,"[""return""]",0,[4.268600000023753],[null],0,29,29,6,1,Tuch,4,emo_mid,short_word,Napf,4,ima_high,short_word
,,,TEST,2024-06-26_15h32.53.814,SNORE_recall_online_non_nature,2023.1.3,Win32,59.52380952,?,"[""return""]",0,[14.117500000000064],[null],0,30,30,35,1,Umwelt,6,emo_mid,short_word,Bahre,5,ima_high,short_word
,,,TEST,2024-06-26_15h32.53.814,SNORE_recall_online_non_nature,2023.1.3,Win32,59.52380952,Möbelstück,"[""return""]",0,[12.533299999952305],[null],0,31,31,12,1,Polohemd,8,emo_mid,long_word,Möbelstück,10,ima_high,long_word
,,,TEST,2024-06-26_15h32.53.814,SNORE_recall_online_non_nature,2023.1.3,Win32,59.52380952,?,"[""return""]",0,[43.21939999997619],[null],0,32,32,19,1,Schimmer,8,emo_mid,long_word,Durchfall,9,ima_high,long_word
,,,TEST,2024-06-26_15h32.53.814,SNORE_recall_online_non_nature,2023.1.3,Win32,59.52380952,Kugel,"[""return""]",0,[4.941599999904611],[null],0,33,33,14,1,Praxis,6,emo_mid,short_word,Kugel,5,ima_high,short_word
,,,TEST,2024-06-26_15h32.53.814,SNORE_recall_online_non_nature,2023.1.3,Win32,59.52380952,dreck,"[""return""]",0,[3.052899999976148],[null],0,34,34,0,1,Wodka,5,emo_mid,short_word,Dreck,5,ima_high,short_word
,,,TEST,2024-06-26_15h32.53.814,SNORE_recall_online_non_nature,2023.1.3,Win32,59.52380952,Schloss,"[""return""]",0,[2.694399999976099],[null],0,35,35,27,1,Nagellack,9,emo_mid,long_word,Schloss,7,ima_high,long_word
,,,TEST,2024-06-26_15h32.53.814,SNORE_recall_online_non_nature,2023.1.3,Win32,59.52380952,,,,,,,,,,,,,,,,,,
