Word1,WORD_length1,Emo_condition,length_group_emo,Word2,WORD_length2,Ima_condition,length_group_ima,recall_loop.thisRepN,recall_loop.thisTrialN,recall_loop.thisN,recall_loop.thisIndex,start_text.started,key_resp.started,key_resp.keys,key_resp.rt,key_resp.duration,Stimulus.started,accept.started,Response.text,accept.keys,accept.corr,accept.rt,accept.duration,end_text.started,end_text.stopped,participant,date,expName,psychopyVersion,frameRate,
,,,,,,,,,,,,18.35798050000085,18.35798050000085,return,15.450352199999543,None,,,,,,,,,,MA01KA110624,2024-06-11_16h56.32.403,SNORE_recall_in_person,2023.1.3,59.97508634903124,
Reflektor,9,emo_mid,long_word,Karussell,9,ima_high,long_word,0,0,0,4,,,,,,34.824966199999835,34.824966199999835,"
Karussel",['return'],0,[10.183109300001888],[None],,,MA01KA110624,2024-06-11_16h56.32.403,SNORE_recall_in_person,2023.1.3,59.97508634903124,
Triangel,8,emo_mid,long_word,Ambulanz,8,ima_high,long_word,0,1,1,33,,,,,,46.02534360000027,46.02534360000027,"
Ambulanz",['return'],0,[3.926652500000273],[None],,,MA01KA110624,2024-06-11_16h56.32.403,SNORE_recall_in_person,2023.1.3,59.97508634903124,
Staffelei,9,emo_mid,long_word,Doppelbett,10,ima_high,long_word,0,2,2,22,,,,,,50.97521980000056,50.97521980000056,"
Doppelbett",['return'],0,[4.608866300000955],[None],,,MA01KA110624,2024-06-11_16h56.32.403,SNORE_recall_in_person,2023.1.3,59.97508634903124,
Notiz,5,emo_mid,short_word,Darm,4,ima_high,short_word,0,3,3,29,,,,,,56.60860230000071,56.60860230000071,"
Darm",['return'],0,[2.672821300000578],[None],,,MA01KA110624,2024-06-11_16h56.32.403,SNORE_recall_in_person,2023.1.3,59.97508634903124,
Nagellack,9,emo_mid,long_word,Schloss,7,ima_high,long_word,0,4,4,27,,,,,,60.30848110000079,60.30848110000079,"
Schloss
",['return'],0,[3.4353510000000824],[None],,,MA01KA110624,2024-06-11_16h56.32.403,SNORE_recall_in_person,2023.1.3,59.97508634903124,
Praxis,6,emo_mid,short_word,Kugel,5,ima_high,short_word,0,5,5,14,,,,,,64.77503910000087,64.77503910000087,"Kugel
",['return'],0,[4.569475299998885],[None],,,MA01KA110624,2024-06-11_16h56.32.403,SNORE_recall_in_person,2023.1.3,59.97508634903124,
Filter,5,emo_mid,short_word,Chor,4,ima_high,short_word,0,6,6,30,,,,,,70.37508639999942,70.37508639999942,Chor,['return'],0,[3.529653200001121],[None],,,MA01KA110624,2024-06-11_16h56.32.403,SNORE_recall_in_person,2023.1.3,59.97508634903124,
Korken,6,emo_mid,short_word,Flöte,5,ima_high,short_word,0,7,7,18,,,,,,74.90848829999959,74.90848829999959,"
Flöte",['return'],0,[3.859457900000052],[None],,,MA01KA110624,2024-06-11_16h56.32.403,SNORE_recall_in_person,2023.1.3,59.97508634903124,
Ereignis,8,emo_mid,long_word,Ohrfeige,8,ima_high,long_word,0,8,8,31,,,,,,79.79149540000071,79.79149540000071,"
Ohrfeige",['return'],0,[3.6805032000011124],[None],,,MA01KA110624,2024-06-11_16h56.32.403,SNORE_recall_in_person,2023.1.3,59.97508634903124,
Hürde,5,emo_mid,short_word,Krug,4,ima_high,short_word,0,9,9,16,,,,,,84.49157539999942,84.49157539999942,"
Krug",['return'],0,[6.660268600000563],[None],,,MA01KA110624,2024-06-11_16h56.32.403,SNORE_recall_in_person,2023.1.3,59.97508634903124,
Ironie,6,emo_mid,short_word,Parade,6,ima_high,short_word,0,10,10,11,,,,,,92.17506599999979,92.17506599999979,"
Parade",['return'],0,[2.5452509000006103],[None],,,MA01KA110624,2024-06-11_16h56.32.403,SNORE_recall_in_person,2023.1.3,59.97508634903124,
Bagger,6,emo_mid,short_word,Kappe,5,ima_high,short_word,0,11,11,2,,,,,,95.74171279999973,95.74171279999973,"
Kappe
",['return'],0,[3.250728299999537],[None],,,MA01KA110624,2024-06-11_16h56.32.403,SNORE_recall_in_person,2023.1.3,59.97508634903124,
Kanne,5,emo_mid,short_word,Roller,6,ima_high,short_word,0,12,12,32,,,,,,100.0251017999999,100.0251017999999,Roller,['return'],0,[4.983055900000181],[None],,,MA01KA110624,2024-06-11_16h56.32.403,SNORE_recall_in_person,2023.1.3,59.97508634903124,
Stufe,5,emo_mid,short_word,Büste,5,ima_high,short_word,0,13,13,20,,,,,,106.02509939999982,106.02509939999982,"
Büste",['return'],0,[4.3587205999992875],[None],,,MA01KA110624,2024-06-11_16h56.32.403,SNORE_recall_in_person,2023.1.3,59.97508634903124,
Wodka,5,emo_mid,short_word,Dreck,5,ima_high,short_word,0,14,14,0,,,,,,111.39187289999973,111.39187289999973,"
Gefahr",['return'],0,[25.760411600000225],[None],,,MA01KA110624,2024-06-11_16h56.32.403,SNORE_recall_in_person,2023.1.3,59.97508634903124,
Kuhstall,8,emo_mid,long_word,Backofen,8,ima_high,long_word,0,15,15,15,,,,,,138.17504370000097,138.17504370000097,"
Backofen
",['return'],0,[5.968801099999837],[None],,,MA01KA110624,2024-06-11_16h56.32.403,SNORE_recall_in_person,2023.1.3,59.97508634903124,
Andeutung,9,emo_mid,long_word,Schatulle,9,ima_high,long_word,0,16,16,28,,,,,,145.15851470000052,145.15851470000052,"Schatulle
",['return'],0,[6.953213499999038],[None],,,MA01KA110624,2024-06-11_16h56.32.403,SNORE_recall_in_person,2023.1.3,59.97508634903124,
Kelch,5,emo_mid,short_word,Haus,4,ima_high,short_word,0,17,17,3,,,,,,153.14142840000022,153.14142840000022,Haus,['return'],0,[7.594360400000369],[None],,,MA01KA110624,2024-06-11_16h56.32.403,SNORE_recall_in_person,2023.1.3,59.97508634903124,
Entstehung,10,emo_mid,long_word,Malkasten,9,ima_high,long_word,0,18,18,5,,,,,,161.75832160000027,161.75832160000027,"
Malkasten
",['return'],0,[4.36943009999959],[None],,,MA01KA110624,2024-06-11_16h56.32.403,SNORE_recall_in_person,2023.1.3,59.97508634903124,
Eis,3,emo_mid,short_word,Handy,5,ima_high,short_word,0,19,19,7,,,,,,167.15835220000008,167.15835220000008,handy,['return'],0,[2.4734723000019585],[None],,,MA01KA110624,2024-06-11_16h56.32.403,SNORE_recall_in_person,2023.1.3,59.97508634903124,
Anleitung,9,emo_mid,long_word,Dachboden,9,ima_high,long_word,0,20,20,25,,,,,,170.65834360000008,170.65834360000008,"
dachboden",['return'],0,[9.166105600001174],[None],,,MA01KA110624,2024-06-11_16h56.32.403,SNORE_recall_in_person,2023.1.3,59.97508634903124,
Akt,3,emo_mid,short_word,Flut,4,ima_high,short_word,0,21,21,13,,,,,,180.84169529999963,180.84169529999963,"
Flut
",['return'],0,[3.254244600000675],[None],,,MA01KA110624,2024-06-11_16h56.32.403,SNORE_recall_in_person,2023.1.3,59.97508634903124,
Werbung,7,emo_mid,long_word,Stecknadel,10,ima_high,long_word,0,22,22,17,,,,,,185.12505640000018,185.12505640000018,Stecknadel,['return'],0,[5.915401300000667],[None],,,MA01KA110624,2024-06-11_16h56.32.403,SNORE_recall_in_person,2023.1.3,59.97508634903124,
Schimmer,8,emo_mid,long_word,Durchfall,9,ima_high,long_word,0,23,23,19,,,,,,192.0584060000001,192.0584060000001,"
Durchfall
",['return'],0,[8.50153649999993],[None],,,MA01KA110624,2024-06-11_16h56.32.403,SNORE_recall_in_person,2023.1.3,59.97508634903124,
Dämmerung,9,emo_mid,long_word,Springseil,10,ima_high,long_word,0,24,24,8,,,,,,201.59149380000053,201.59149380000053,Seilspringen,['return'],0,[5.464731200001552],[None],,,MA01KA110624,2024-06-11_16h56.32.403,SNORE_recall_in_person,2023.1.3,59.97508634903124,
Änderung,8,emo_mid,long_word,Tagebuch,8,ima_high,long_word,0,25,25,1,,,,,,208.07507090000036,208.07507090000036,"
Tagebuch",['return'],0,[6.83666489999996],[None],,,MA01KA110624,2024-06-11_16h56.32.403,SNORE_recall_in_person,2023.1.3,59.97508634903124,
Gang,4,emo_mid,short_word,Deckel,6,ima_high,short_word,0,26,26,23,,,,,,215.9415138000004,215.9415138000004,"
Deckel",['return'],0,[3.2431590000014694],[None],,,MA01KA110624,2024-06-11_16h56.32.403,SNORE_recall_in_person,2023.1.3,59.97508634903124,
Stiefel,7,emo_mid,long_word,Waldhaus,8,ima_high,long_word,0,27,27,34,,,,,,220.20834360000117,220.20834360000117,"
Waldhaus",['return'],0,[3.6970760999993217],[None],,,MA01KA110624,2024-06-11_16h56.32.403,SNORE_recall_in_person,2023.1.3,59.97508634903124,
Gegenteil,9,emo_mid,long_word,Handtuch,8,ima_high,long_word,0,28,28,21,,,,,,224.92507860000114,224.92507860000114,"
Handtuch",['return'],0,[4.259338600000774],[None],,,MA01KA110624,2024-06-11_16h56.32.403,SNORE_recall_in_person,2023.1.3,59.97508634903124,
Polohemd,8,emo_mid,long_word,Möbelstück,10,ima_high,long_word,0,29,29,12,,,,,,230.20828849999998,230.20828849999998,"
Möbelstück",['return'],0,[7.007621900000231],[None],,,MA01KA110624,2024-06-11_16h56.32.403,SNORE_recall_in_person,2023.1.3,59.97508634903124,
Umwelt,6,emo_mid,short_word,Bahre,5,ima_high,short_word,0,30,30,35,,,,,,238.2414915999998,238.2414915999998,"
Bahre",['return'],0,[4.926352700002099],[None],,,MA01KA110624,2024-06-11_16h56.32.403,SNORE_recall_in_person,2023.1.3,59.97508634903124,
Tat,3,emo_mid,short_word,Gondel,6,ima_high,short_word,0,31,31,10,,,,,,244.1917723000006,244.1917723000006,"
Gondel",['return'],0,[10.640160599999945],[None],,,MA01KA110624,2024-06-11_16h56.32.403,SNORE_recall_in_person,2023.1.3,59.97508634903124,
Tube,4,emo_mid,short_word,Karren,6,ima_high,short_word,0,32,32,26,,,,,,255.8585316000008,255.8585316000008,"
Karre
",['return'],0,[3.053115100001378],[None],,,MA01KA110624,2024-06-11_16h56.32.403,SNORE_recall_in_person,2023.1.3,59.97508634903124,
Vorrecht,8,emo_mid,long_word,Sandwich,8,ima_high,long_word,0,33,33,9,,,,,,259.9416073000011,259.9416073000011,Sandwitch,['return'],0,[15.562655499999892],[None],,,MA01KA110624,2024-06-11_16h56.32.403,SNORE_recall_in_person,2023.1.3,59.97508634903124,
Tuch,4,emo_mid,short_word,Napf,4,ima_high,short_word,0,34,34,6,,,,,,276.5251165000009,276.5251165000009,"
Napf",['return'],0,[4.531333100001575],[None],,,MA01KA110624,2024-06-11_16h56.32.403,SNORE_recall_in_person,2023.1.3,59.97508634903124,
Automat,7,emo_mid,long_word,Schleife,8,ima_high,long_word,0,35,35,24,,,,,,282.07516790000045,282.07516790000045,"
Schleife",['return'],0,[3.364519600001586],[None],,,MA01KA110624,2024-06-11_16h56.32.403,SNORE_recall_in_person,2023.1.3,59.97508634903124,
,,,,,,,,,,,,,,,,,,,,,,,,285.45840429999953,292.45843349999996,,,,,,
