key_resp.keys,key_resp.rt,key_resp.duration,participant,date,expName,psychopyVersion,OS,frameRate,Response.text,accept.keys,accept.corr,accept.rt,accept.duration,recall_loop.thisRepN,recall_loop.thisTrialN,recall_loop.thisN,recall_loop.thisIndex,recall_loop.ran,Word1,WORD_length1,Emo_condition,length_group_emo,Word2,WORD_length2,Ima_condition,length_group_ima
return,12.2595,,RU02AG170724,2024-07-17_15h11.35.866,SNORE_recall_in_person_non_nature,2023.1.3,Win32,60.24096386,,,,,,,,,,,,,,,,,,
,,,RU02AG170724,2024-07-17_15h11.35.866,SNORE_recall_in_person_non_nature,2023.1.3,Win32,60.24096386,dachboden,"[""return""]",0,[11.609800000001087],[null],0,0,0,25,1,Anleitung,9,emo_mid,long_word,Dachboden,9,ima_high,long_word
,,,RU02AG170724,2024-07-17_15h11.35.866,SNORE_recall_in_person_non_nature,2023.1.3,Win32,60.24096386,springseil,"[""return""]",0,[6.516699999999219],[null],0,1,1,8,1,Dämmerung,9,emo_mid,long_word,Springseil,10,ima_high,long_word
,,,RU02AG170724,2024-07-17_15h11.35.866,SNORE_recall_in_person_non_nature,2023.1.3,Win32,60.24096386,Haus,"[""return""]",0,[4.905099999999038],[null],0,2,2,3,1,Kelch,5,emo_mid,short_word,Haus,4,ima_high,short_word
,,,RU02AG170724,2024-07-17_15h11.35.866,SNORE_recall_in_person_non_nature,2023.1.3,Win32,60.24096386,Gondel,"[""return""]",0,[4.549799999998868],[null],0,3,3,10,1,Tat,3,emo_mid,short_word,Gondel,6,ima_high,short_word
,,,RU02AG170724,2024-07-17_15h11.35.866,SNORE_recall_in_person_non_nature,2023.1.3,Win32,60.24096386,Kugel,"[""return""]",0,[3.8166999999994005],[null],0,4,4,14,1,Praxis,6,emo_mid,short_word,Kugel,5,ima_high,short_word
,,,RU02AG170724,2024-07-17_15h11.35.866,SNORE_recall_in_person_non_nature,2023.1.3,Win32,60.24096386,Kompott,"[""return""]",0,[21.034999999999854],[null],0,5,5,28,1,Andeutung,9,emo_mid,long_word,Schatulle,9,ima_high,long_word
,,,RU02AG170724,2024-07-17_15h11.35.866,SNORE_recall_in_person_non_nature,2023.1.3,Win32,60.24096386,Tagebuch,"[""return""]",0,[8.067900000000009],[null],0,6,6,1,1,Änderung,8,emo_mid,long_word,Tagebuch,8,ima_high,long_word
,,,RU02AG170724,2024-07-17_15h11.35.866,SNORE_recall_in_person_non_nature,2023.1.3,Win32,60.24096386,Darm,"[""return""]",0,[3.116899999999987],[null],0,7,7,29,1,Notiz,5,emo_mid,short_word,Darm,4,ima_high,short_word
,,,RU02AG170724,2024-07-17_15h11.35.866,SNORE_recall_in_person_non_nature,2023.1.3,Win32,60.24096386,Stecknadel,"[""return""]",0,[6.7873999999983425],[null],0,8,8,17,1,Werbung,7,emo_mid,long_word,Stecknadel,10,ima_high,long_word
,,,RU02AG170724,2024-07-17_15h11.35.866,SNORE_recall_in_person_non_nature,2023.1.3,Win32,60.24096386,Dreck,"[""return""]",0,[2.5509000000001834],[null],0,9,9,0,1,Wodka,5,emo_mid,short_word,Dreck,5,ima_high,short_word
,,,RU02AG170724,2024-07-17_15h11.35.866,SNORE_recall_in_person_non_nature,2023.1.3,Win32,60.24096386,Ambulanz,"[""return""]",0,[3.8837999999987005],[null],0,10,10,33,1,Triangel,8,emo_mid,long_word,Ambulanz,8,ima_high,long_word
,,,RU02AG170724,2024-07-17_15h11.35.866,SNORE_recall_in_person_non_nature,2023.1.3,Win32,60.24096386,Möbelstück,"[""return""]",0,[5.516600000001745],[null],0,11,11,12,1,Polohemd,8,emo_mid,long_word,Möbelstück,10,ima_high,long_word
,,,RU02AG170724,2024-07-17_15h11.35.866,SNORE_recall_in_person_non_nature,2023.1.3,Win32,60.24096386,Krug,"[""return""]",0,[5.683799999998882],[null],0,12,12,16,1,Hürde,5,emo_mid,short_word,Krug,4,ima_high,short_word
,,,RU02AG170724,2024-07-17_15h11.35.866,SNORE_recall_in_person_non_nature,2023.1.3,Win32,60.24096386,Flut,"[""return""]",0,[2.5910000000003492],[null],0,13,13,13,1,Akt,3,emo_mid,short_word,Flut,4,ima_high,short_word
,,,RU02AG170724,2024-07-17_15h11.35.866,SNORE_recall_in_person_non_nature,2023.1.3,Win32,60.24096386,Büste,"[""return""]",0,[3.309400000000096],[null],0,14,14,20,1,Stufe,5,emo_mid,short_word,Büste,5,ima_high,short_word
,,,RU02AG170724,2024-07-17_15h11.35.866,SNORE_recall_in_person_non_nature,2023.1.3,Win32,60.24096386,Handtuch,"[""return""]",0,[3.9885999999996784],[null],0,15,15,21,1,Gegenteil,9,emo_mid,long_word,Handtuch,8,ima_high,long_word
,,,RU02AG170724,2024-07-17_15h11.35.866,SNORE_recall_in_person_non_nature,2023.1.3,Win32,60.24096386,Sandwich,"[""return""]",0,[4.10229999999865],[null],0,16,16,9,1,Vorrecht,8,emo_mid,long_word,Sandwich,8,ima_high,long_word
,,,RU02AG170724,2024-07-17_15h11.35.866,SNORE_recall_in_person_non_nature,2023.1.3,Win32,60.24096386,Handy,"[""return""]",0,[4.583400000000438],[null],0,17,17,7,1,Eis,3,emo_mid,short_word,Handy,5,ima_high,short_word
,,,RU02AG170724,2024-07-17_15h11.35.866,SNORE_recall_in_person_non_nature,2023.1.3,Win32,60.24096386,Backofen,"[""return""]",0,[3.5335000000004584],[null],0,18,18,15,1,Kuhstall,8,emo_mid,long_word,Backofen,8,ima_high,long_word
,,,RU02AG170724,2024-07-17_15h11.35.866,SNORE_recall_in_person_non_nature,2023.1.3,Win32,60.24096386,Doppelbett,"[""return""]",0,[3.9834000000009837],[null],0,19,19,22,1,Staffelei,9,emo_mid,long_word,Doppelbett,10,ima_high,long_word
,,,RU02AG170724,2024-07-17_15h11.35.866,SNORE_recall_in_person_non_nature,2023.1.3,Win32,60.24096386,Napf,"[""return""]",0,[5.1666000000004715],[null],0,20,20,6,1,Tuch,4,emo_mid,short_word,Napf,4,ima_high,short_word
,,,RU02AG170724,2024-07-17_15h11.35.866,SNORE_recall_in_person_non_nature,2023.1.3,Win32,60.24096386,Deckel,"[""return""]",0,[5.298800000001393],[null],0,21,21,23,1,Gang,4,emo_mid,short_word,Deckel,6,ima_high,short_word
,,,RU02AG170724,2024-07-17_15h11.35.866,SNORE_recall_in_person_non_nature,2023.1.3,Win32,60.24096386,Chor,"[""return""]",0,[2.316899999999805],[null],0,22,22,30,1,Filter,5,emo_mid,short_word,Chor,4,ima_high,short_word
,,,RU02AG170724,2024-07-17_15h11.35.866,SNORE_recall_in_person_non_nature,2023.1.3,Win32,60.24096386,Schleife,"[""return""]",0,[3.006000000000313],[null],0,23,23,24,1,Automat,7,emo_mid,long_word,Schleife,8,ima_high,long_word
,,,RU02AG170724,2024-07-17_15h11.35.866,SNORE_recall_in_person_non_nature,2023.1.3,Win32,60.24096386,Kappe,"[""return""]",0,[2.7669000000005326],[null],0,24,24,2,1,Bagger,6,emo_mid,short_word,Kappe,5,ima_high,short_word
,,,RU02AG170724,2024-07-17_15h11.35.866,SNORE_recall_in_person_non_nature,2023.1.3,Win32,60.24096386,Durchfall,"[""return""]",0,[3.0753000000013344],[null],0,25,25,19,1,Schimmer,8,emo_mid,long_word,Durchfall,9,ima_high,long_word
,,,RU02AG170724,2024-07-17_15h11.35.866,SNORE_recall_in_person_non_nature,2023.1.3,Win32,60.24096386,Ohrfeige,"[""return""]",0,[4.417999999999665],[null],0,26,26,31,1,Ereignis,8,emo_mid,long_word,Ohrfeige,8,ima_high,long_word
,,,RU02AG170724,2024-07-17_15h11.35.866,SNORE_recall_in_person_non_nature,2023.1.3,Win32,60.24096386,Bahre,"[""return""]",0,[2.53440000000046],[null],0,27,27,35,1,Umwelt,6,emo_mid,short_word,Bahre,5,ima_high,short_word
,,,RU02AG170724,2024-07-17_15h11.35.866,SNORE_recall_in_person_non_nature,2023.1.3,Win32,60.24096386,Parade,"[""return""]",0,[5.908400000000256],[null],0,28,28,11,1,Ironie,6,emo_mid,short_word,Parade,6,ima_high,short_word
,,,RU02AG170724,2024-07-17_15h11.35.866,SNORE_recall_in_person_non_nature,2023.1.3,Win32,60.24096386,Karusell,"[""return""]",0,[6.8170999999993],[null],0,29,29,4,1,Reflektor,9,emo_mid,long_word,Karussell,9,ima_high,long_word
,,,RU02AG170724,2024-07-17_15h11.35.866,SNORE_recall_in_person_non_nature,2023.1.3,Win32,60.24096386,Roller,"[""return""]",0,[15.4445999999989],[null],0,30,30,32,1,Kanne,5,emo_mid,short_word,Roller,6,ima_high,short_word
,,,RU02AG170724,2024-07-17_15h11.35.866,SNORE_recall_in_person_non_nature,2023.1.3,Win32,60.24096386,Schloss,"[""return""]",0,[3.867000000000189],[null],0,31,31,27,1,Nagellack,9,emo_mid,long_word,Schloss,7,ima_high,long_word
,,,RU02AG170724,2024-07-17_15h11.35.866,SNORE_recall_in_person_non_nature,2023.1.3,Win32,60.24096386,Flöte,"[""return""]",0,[2.9335999999993874],[null],0,32,32,18,1,Korken,6,emo_mid,short_word,Flöte,5,ima_high,short_word
,,,RU02AG170724,2024-07-17_15h11.35.866,SNORE_recall_in_person_non_nature,2023.1.3,Win32,60.24096386,Karre,"[""return""]",0,[3.2002999999995154],[null],0,33,33,26,1,Tube,4,emo_mid,short_word,Karren,6,ima_high,short_word
,,,RU02AG170724,2024-07-17_15h11.35.866,SNORE_recall_in_person_non_nature,2023.1.3,Win32,60.24096386,Malkasten,"[""return""]",0,[5.800299999999879],[null],0,34,34,5,1,Entstehung,10,emo_mid,long_word,Malkasten,9,ima_high,long_word
,,,RU02AG170724,2024-07-17_15h11.35.866,SNORE_recall_in_person_non_nature,2023.1.3,Win32,60.24096386,Waldhaus,"[""return""]",0,[5.2520999999997],[null],0,35,35,34,1,Stiefel,7,emo_mid,long_word,Waldhaus,8,ima_high,long_word
,,,RU02AG170724,2024-07-17_15h11.35.866,SNORE_recall_in_person_non_nature,2023.1.3,Win32,60.24096386,,,,,,,,,,,,,,,,,,
