key_resp.keys,key_resp.rt,key_resp.duration,participant,date,expName,psychopyVersion,OS,frameRate,Response.text,accept.keys,accept.corr,accept.rt,accept.duration,recall_loop.thisRepN,recall_loop.thisTrialN,recall_loop.thisN,recall_loop.thisIndex,recall_loop.ran,Word1,WORD_length1,Emo_condition,length_group_emo,Word2,WORD_length2,Ima_condition,length_group_ima,Randomize
return,19.918,,RU02AG240724,2024-07-24_21h35.40.835,SNORE_recall_in_person,2023.1.3,Win32,58.82352941,,,,,,,,,,,,,,,,,,,
,,,RU02AG240724,2024-07-24_21h35.40.835,SNORE_recall_in_person,2023.1.3,Win32,58.82352941,Buche,"[""return""]",0,[8.99200000000019],[null],0,0,0,27,1,Wolf,4,emo_mid,short_word,Buche,5,ima_high,short_word,TRUE
,,,RU02AG240724,2024-07-24_21h35.40.835,SNORE_recall_in_person,2023.1.3,Win32,58.82352941,Fledermaus,"[""return""]",0,[4.081000000000131],[null],0,1,1,29,1,Säugetier,9,emo_mid,long_word,Fledermaus,10,ima_high,long_word,TRUE
,,,RU02AG240724,2024-07-24_21h35.40.835,SNORE_recall_in_person,2023.1.3,Win32,58.82352941,Bulle,"[""return""]",0,[5.017000000000053],[null],0,2,2,0,1,Spore,5,emo_mid,short_word,Bulle,5,ima_high,short_word,TRUE
,,,RU02AG240724,2024-07-24_21h35.40.835,SNORE_recall_in_person,2023.1.3,Win32,58.82352941,Larve,"[""return""]",0,[3.716999999999871],[null],0,3,3,5,1,Eule,4,emo_mid,short_word,Larve,5,ima_high,short_word,TRUE
,,,RU02AG240724,2024-07-24_21h35.40.835,SNORE_recall_in_person,2023.1.3,Win32,58.82352941,Amsel,"[""return""]",0,[9.204999999999927],[null],0,4,4,9,1,Kuh,4,emo_mid,short_word,Amsel,5,ima_high,short_word,TRUE
,,,RU02AG240724,2024-07-24_21h35.40.835,SNORE_recall_in_person,2023.1.3,Win32,58.82352941,Ente,"[""return""]",0,[7.56699999999978],[null],0,5,5,24,1,Zeder,5,emo_mid,short_word,Ente,4,ima_high,short_word,TRUE
,,,RU02AG240724,2024-07-24_21h35.40.835,SNORE_recall_in_person,2023.1.3,Win32,58.82352941,Otter,"[""return""]",0,[3.491999999999962],[null],0,6,6,33,1,Mammut,6,emo_mid,short_word,Otter,5,ima_high,short_word,TRUE
,,,RU02AG240724,2024-07-24_21h35.40.835,SNORE_recall_in_person,2023.1.3,Win32,58.82352941,Ratte,"[""return""]",0,[9.233000000000175],[null],0,7,7,13,1,Lurch,5,emo_mid,short_word,Ratte,5,ima_high,short_word,TRUE
,,,RU02AG240724,2024-07-24_21h35.40.835,SNORE_recall_in_person,2023.1.3,Win32,58.82352941,Brombeere,"[""return""]",0,[3.3350000000000364],[null],0,8,8,3,1,Sprosse,7,emo_mid,long_word,Brombeere,9,ima_high,long_word,TRUE
,,,RU02AG240724,2024-07-24_21h35.40.835,SNORE_recall_in_person,2023.1.3,Win32,58.82352941,Reptil,"[""return""]",0,[5.076999999999998],[null],0,9,9,1,1,Kiwi,4,emo_mid,short_word,Reptil,6,ima_high,short_word,TRUE
,,,RU02AG240724,2024-07-24_21h35.40.835,SNORE_recall_in_person,2023.1.3,Win32,58.82352941,Rosenkohl,"[""return""]",0,[5.232999999999947],[null],0,10,10,26,1,Dromedar,8,emo_mid,long_word,Rosenkohl,9,ima_high,long_word,TRUE
,,,RU02AG240724,2024-07-24_21h35.40.835,SNORE_recall_in_person,2023.1.3,Win32,58.82352941,Raupe,"[""return""]",0,[15.018000000000029],[null],0,11,11,16,1,Barsch,6,emo_mid,short_word,Tiger,5,ima_high,short_word,TRUE
,,,RU02AG240724,2024-07-24_21h35.40.835,SNORE_recall_in_person,2023.1.3,Win32,58.82352941,Blutegel,"[""return""]",0,[5.794999999999845],[null],0,12,12,19,1,Habicht,7,emo_mid,long_word,Blutegel,8,ima_high,long_word,TRUE
,,,RU02AG240724,2024-07-24_21h35.40.835,SNORE_recall_in_person,2023.1.3,Win32,58.82352941,Stinktier,"[""return""]",0,[4.468000000000075],[null],0,13,13,31,1,Eidechse,8,emo_mid,long_word,Stinktier,9,ima_high,long_word,TRUE
,,,RU02AG240724,2024-07-24_21h35.40.835,SNORE_recall_in_person,2023.1.3,Win32,58.82352941,Fisch,"[""return""]",0,[23.034000000000106],[null],0,14,14,11,1,Raupe,5,emo_mid,short_word,Fisch,5,ima_high,short_word,TRUE
,,,RU02AG240724,2024-07-24_21h35.40.835,SNORE_recall_in_person,2023.1.3,Win32,58.82352941,Sellerie,"[""return""]",0,[4.451000000000022],[null],0,15,15,12,1,Maikäfer,8,emo_mid,long_word,Sellerie,8,ima_high,long_word,TRUE
,,,RU02AG240724,2024-07-24_21h35.40.835,SNORE_recall_in_person,2023.1.3,Win32,58.82352941,Schlange,"[""return""]",0,[6.294000000000096],[null],0,16,16,25,1,Walross,7,emo_mid,long_word,Schlange,8,ima_high,long_word,TRUE
,,,RU02AG240724,2024-07-24_21h35.40.835,SNORE_recall_in_person,2023.1.3,Win32,58.82352941,Seeigel,"[""return""]",0,[3.6010000000001128],[null],0,17,17,34,1,Krokodil,8,emo_mid,long_word,Seeigel,7,ima_high,long_word,TRUE
,,,RU02AG240724,2024-07-24_21h35.40.835,SNORE_recall_in_person,2023.1.3,Win32,58.82352941,Walnuss,"[""return""]",0,[2.9849999999999],[null],0,18,18,4,1,Lorbeer,7,emo_mid,long_word,Walnuss,7,ima_high,long_word,TRUE
,,,RU02AG240724,2024-07-24_21h35.40.835,SNORE_recall_in_person,2023.1.3,Win32,58.82352941,Hengst,"[""return""]",0,[9.335000000000036],[null],0,19,19,15,1,Käfer,5,emo_mid,short_word,Hengst,6,ima_high,short_word,TRUE
,,,RU02AG240724,2024-07-24_21h35.40.835,SNORE_recall_in_person,2023.1.3,Win32,58.82352941,Wildkatze,"[""return""]",0,[4.268000000000029],[null],0,20,20,35,1,Raubtier,8,emo_mid,long_word,Wildkatze,9,ima_high,long_word,TRUE
,,,RU02AG240724,2024-07-24_21h35.40.835,SNORE_recall_in_person,2023.1.3,Win32,58.82352941,Krähe,"[""return""]",0,[5.351000000000113],[null],0,21,21,18,1,Busch,5,emo_mid,short_word,Krähe,5,ima_high,short_word,TRUE
,,,RU02AG240724,2024-07-24_21h35.40.835,SNORE_recall_in_person,2023.1.3,Win32,58.82352941,Spargel,"[""return""]",0,[5.1059999999999945],[null],0,22,22,8,1,Knoblauch,9,emo_mid,long_word,Spargel,7,ima_high,long_word,TRUE
,,,RU02AG240724,2024-07-24_21h35.40.835,SNORE_recall_in_person,2023.1.3,Win32,58.82352941,Karpfen,"[""return""]",0,[6.7159999999998945],[null],0,23,23,14,1,Maulwurf,8,emo_mid,long_word,Karpfen,7,ima_high,long_word,TRUE
,,,RU02AG240724,2024-07-24_21h35.40.835,SNORE_recall_in_person,2023.1.3,Win32,58.82352941,Bock,"[""return""]",0,[2.9990000000000236],[null],0,24,24,30,1,Quitte,6,emo_mid,short_word,Bock,4,ima_high,short_word,TRUE
,,,RU02AG240724,2024-07-24_21h35.40.835,SNORE_recall_in_person,2023.1.3,Win32,58.82352941,Gras,"[""return""]",0,[2.4880000000000564],[null],0,25,25,2,1,Hafer,5,emo_mid,short_word,Gras,4,ima_high,short_word,TRUE
,,,RU02AG240724,2024-07-24_21h35.40.835,SNORE_recall_in_person,2023.1.3,Win32,58.82352941,Rebhuhn,"[""return""]",0,[4.283999999999878],[null],0,26,26,32,1,Strauch,7,emo_mid,long_word,Rebhuhn,7,ima_high,long_word,TRUE
,,,RU02AG240724,2024-07-24_21h35.40.835,SNORE_recall_in_person,2023.1.3,Win32,58.82352941,Pfau,"[""return""]",0,[3.9559999999999036],[null],0,27,27,23,1,Gaul,4,emo_mid,short_word,Ei,2,ima_high,short_word,TRUE
,,,RU02AG240724,2024-07-24_21h35.40.835,SNORE_recall_in_person,2023.1.3,Win32,58.82352941,Motte,"[""return""]",0,[2.7509999999999764],[null],0,28,28,17,1,Geier,5,emo_mid,short_word,Motte,5,ima_high,short_word,TRUE
,,,RU02AG240724,2024-07-24_21h35.40.835,SNORE_recall_in_person,2023.1.3,Win32,58.82352941,Pfau,"[""return""]",0,[14.30099999999993],[null],0,29,29,20,1,Vieh,4,emo_mid,short_word,Pfau,4,ima_high,short_word,TRUE
,,,RU02AG240724,2024-07-24_21h35.40.835,SNORE_recall_in_person,2023.1.3,Win32,58.82352941,Getreide,"[""return""]",0,[3.5190000000000055],[null],0,30,30,21,1,Languste,8,emo_mid,long_word,Getreide,8,ima_high,long_word,TRUE
,,,RU02AG240724,2024-07-24_21h35.40.835,SNORE_recall_in_person,2023.1.3,Win32,58.82352941,Fisch,"[""return""]",0,[31.883999999999787],[null],0,31,31,28,1,Kolibri,7,emo_mid,long_word,Thunfisch,9,ima_high,long_word,TRUE
,,,RU02AG240724,2024-07-24_21h35.40.835,SNORE_recall_in_person,2023.1.3,Win32,58.82352941,Frucht,"[""return""]",0,[4.449999999999818],[null],0,32,32,6,1,Meise,5,emo_mid,short_word,Frucht,6,ima_high,short_word,TRUE
,,,RU02AG240724,2024-07-24_21h35.40.835,SNORE_recall_in_person,2023.1.3,Win32,58.82352941,Faultier,"[""return""]",0,[5.483999999999924],[null],0,33,33,7,1,Zwiebel,7,emo_mid,long_word,Faultier,8,ima_high,long_word,TRUE
,,,RU02AG240724,2024-07-24_21h35.40.835,SNORE_recall_in_person,2023.1.3,Win32,58.82352941,Seepferdchen,"[""return""]",0,[14.226999999999862],[null],0,34,34,22,1,Gorilla,7,emo_mid,long_word,Seepferd,8,ima_high,long_word,TRUE
,,,RU02AG240724,2024-07-24_21h35.40.835,SNORE_recall_in_person,2023.1.3,Win32,58.82352941,Schnecke,"[""return""]",0,[3.450000000000273],[null],0,35,35,10,1,Nashorn,7,emo_mid,long_word,Schnecke,8,ima_high,long_word,TRUE
,,,RU02AG240724,2024-07-24_21h35.40.835,SNORE_recall_in_person,2023.1.3,Win32,58.82352941,,,,,,,,,,,,,,,,,,,
