key_resp.keys,key_resp.rt,key_resp.duration,participant,date,expName,psychopyVersion,OS,frameRate,Response.text,accept.keys,accept.corr,accept.rt,accept.duration,recall_loop.thisRepN,recall_loop.thisTrialN,recall_loop.thisN,recall_loop.thisIndex,recall_loop.ran,Word1,WORD_length1,Emo_condition,length_group_emo,Word2,WORD_length2,Ima_condition,length_group_ima
return,4.668,,MA01KA120624,2024-06-12_09h44.13.623,SNORE_recall_online,2023.1.3,Win32,60.0240096,,,,,,,,,,,,,,,,,,
,,,MA01KA120624,2024-06-12_09h44.13.623,SNORE_recall_online,2023.1.3,Win32,60.0240096,,"[""return""]",0,[16.362000000000002],[null],0,0,0,30,1,Lorbeer,7,emo_mid,long_word,Walnuss,7,ima_high,long_word
,,,MA01KA120624,2024-06-12_09h44.13.623,SNORE_recall_online,2023.1.3,Win32,60.0240096,,"[""return""]",0,[5.810000000000002],[null],0,1,1,33,1,Nashorn,7,emo_mid,long_word,Weißkohl,8,ima_high,long_word
,,,MA01KA120624,2024-06-12_09h44.13.623,SNORE_recall_online,2023.1.3,Win32,60.0240096,,"[""return""]",0,[10.329],[null],0,2,2,11,1,Vieh,4,emo_mid,short_word,Pfau,4,ima_high,short_word
,,,MA01KA120624,2024-06-12_09h44.13.623,SNORE_recall_online,2023.1.3,Win32,60.0240096,,"[""return""]",0,[7.938000000000002],[null],0,3,3,1,1,Araber,6,emo_mid,short_word,Vampir,6,ima_high,short_word
,,,MA01KA120624,2024-06-12_09h44.13.623,SNORE_recall_online,2023.1.3,Win32,60.0240096,,"[""return""]",0,[33.42400000000001],[null],0,4,4,0,1,Spore,5,emo_mid,short_word,Bulle,5,ima_high,short_word
,,,MA01KA120624,2024-06-12_09h44.13.623,SNORE_recall_online,2023.1.3,Win32,60.0240096,,"[""return""]",0,[4.319999999999993],[null],0,5,5,17,1,Busch,5,emo_mid,short_word,Krähe,5,ima_high,short_word
,,,MA01KA120624,2024-06-12_09h44.13.623,SNORE_recall_online,2023.1.3,Win32,60.0240096,,"[""return""]",0,[5.1569999999999965],[null],0,6,6,8,1,Geier,5,emo_mid,short_word,Motte,5,ima_high,short_word
,,,MA01KA120624,2024-06-12_09h44.13.623,SNORE_recall_online,2023.1.3,Win32,60.0240096,,"[""return""]",0,[5.894999999999996],[null],0,7,7,19,1,Maulwurf,8,emo_mid,long_word,Karpfen,7,ima_high,long_word
,,,MA01KA120624,2024-06-12_09h44.13.623,SNORE_recall_online,2023.1.3,Win32,60.0240096,,"[""return""]",0,[2.5270000000000152],[null],0,8,8,7,1,Boxer,5,emo_mid,short_word,Frucht,6,ima_high,short_word
,,,MA01KA120624,2024-06-12_09h44.13.623,SNORE_recall_online,2023.1.3,Win32,60.0240096,,"[""return""]",0,[3.585000000000008],[null],0,9,9,29,1,Säugetier,9,emo_mid,long_word,Fledermaus,10,ima_high,long_word
,,,MA01KA120624,2024-06-12_09h44.13.623,SNORE_recall_online,2023.1.3,Win32,60.0240096,,"[""return""]",0,[5.198999999999984],[null],0,10,10,23,1,Sprosse,7,emo_mid,long_word,Brombeere,9,ima_high,long_word
,,,MA01KA120624,2024-06-12_09h44.13.623,SNORE_recall_online,2023.1.3,Win32,60.0240096,,"[""return""]",0,[6.860000000000014],[null],0,11,11,35,1,Raubtier,8,emo_mid,long_word,Wildkatze,9,ima_high,long_word
,,,MA01KA120624,2024-06-12_09h44.13.623,SNORE_recall_online,2023.1.3,Win32,60.0240096,,"[""return""]",0,[3.873000000000019],[null],0,12,12,26,1,Knoblauch,9,emo_mid,long_word,Spargel,7,ima_high,long_word
,,,MA01KA120624,2024-06-12_09h44.13.623,SNORE_recall_online,2023.1.3,Win32,60.0240096,,"[""return""]",0,[2.459000000000003],[null],0,13,13,34,1,Krokodil,8,emo_mid,long_word,Seeigel,7,ima_high,long_word
,,,MA01KA120624,2024-06-12_09h44.13.623,SNORE_recall_online,2023.1.3,Win32,60.0240096,,"[""return""]",0,[2.173000000000002],[null],0,14,14,24,1,Walross,7,emo_mid,long_word,Schlange,8,ima_high,long_word
,,,MA01KA120624,2024-06-12_09h44.13.623,SNORE_recall_online,2023.1.3,Win32,60.0240096,,"[""return""]",0,[4.122000000000014],[null],0,15,15,28,1,Kardinal,8,emo_mid,long_word,Sellerie,8,ima_high,long_word
,,,MA01KA120624,2024-06-12_09h44.13.623,SNORE_recall_online,2023.1.3,Win32,60.0240096,,"[""return""]",0,[4.063999999999993],[null],0,16,16,20,1,Languste,8,emo_mid,long_word,Getreide,8,ima_high,long_word
,,,MA01KA120624,2024-06-12_09h44.13.623,SNORE_recall_online,2023.1.3,Win32,60.0240096,,"[""return""]",0,[3.0039999999999907],[null],0,17,17,13,1,Zeder,5,emo_mid,short_word,Ente,4,ima_high,short_word
,,,MA01KA120624,2024-06-12_09h44.13.623,SNORE_recall_online,2023.1.3,Win32,60.0240096,,"[""return""]",0,[2.311000000000007],[null],0,18,18,5,1,Quitte,6,emo_mid,short_word,Bock,4,ima_high,short_word
,,,MA01KA120624,2024-06-12_09h44.13.623,SNORE_recall_online,2023.1.3,Win32,60.0240096,,"[""return""]",0,[65.11500000000001],[null],0,19,19,31,1,Eidechse,8,emo_mid,long_word,Stinktier,9,ima_high,long_word
,,,MA01KA120624,2024-06-12_09h44.13.623,SNORE_recall_online,2023.1.3,Win32,60.0240096,,"[""return""]",0,[2.974000000000018],[null],0,20,20,15,1,Barsch,6,emo_mid,short_word,Tiger,5,ima_high,short_word
,,,MA01KA120624,2024-06-12_09h44.13.623,SNORE_recall_online,2023.1.3,Win32,60.0240096,,"[""return""]",0,[7.949999999999989],[null],0,21,21,14,1,Käfer,5,emo_mid,short_word,Hengst,6,ima_high,short_word
,,,MA01KA120624,2024-06-12_09h44.13.623,SNORE_recall_online,2023.1.3,Win32,60.0240096,,"[""return""]",0,[7.165999999999997],[null],0,22,22,25,1,Dromedar,8,emo_mid,long_word,Rosenkohl,9,ima_high,long_word
,,,MA01KA120624,2024-06-12_09h44.13.623,SNORE_recall_online,2023.1.3,Win32,60.0240096,,"[""return""]",0,[12.763999999999953],[null],0,23,23,6,1,Rohr,4,emo_mid,short_word,Larve,5,ima_high,short_word
,,,MA01KA120624,2024-06-12_09h44.13.623,SNORE_recall_online,2023.1.3,Win32,60.0240096,,"[""return""]",0,[3.701999999999998],[null],0,24,24,9,1,Senf,4,emo_mid,short_word,Amsel,5,ima_high,short_word
,,,MA01KA120624,2024-06-12_09h44.13.623,SNORE_recall_online,2023.1.3,Win32,60.0240096,,"[""return""]",0,[1.899000000000001],[null],0,25,25,18,1,Habicht,7,emo_mid,long_word,Blutegel,8,ima_high,long_word
,,,MA01KA120624,2024-06-12_09h44.13.623,SNORE_recall_online,2023.1.3,Win32,60.0240096,,"[""return""]",0,[4.427000000000021],[null],0,26,26,3,1,Gaul,4,emo_mid,short_word,Ei,2,ima_high,short_word
,,,MA01KA120624,2024-06-12_09h44.13.623,SNORE_recall_online,2023.1.3,Win32,60.0240096,,"[""return""]",0,[1.5960000000000036],[null],0,27,27,12,1,Lurch,5,emo_mid,short_word,Ratte,5,ima_high,short_word
,,,MA01KA120624,2024-06-12_09h44.13.623,SNORE_recall_online,2023.1.3,Win32,60.0240096,,"[""return""]",0,[3.7789999999999964],[null],0,28,28,32,1,Strauch,7,emo_mid,long_word,Rebhuhn,7,ima_high,long_word
,,,MA01KA120624,2024-06-12_09h44.13.623,SNORE_recall_online,2023.1.3,Win32,60.0240096,,"[""return""]",0,[40.835999999999956],[null],0,29,29,4,1,Wolf,4,emo_mid,short_word,Buche,5,ima_high,short_word
,,,MA01KA120624,2024-06-12_09h44.13.623,SNORE_recall_online,2023.1.3,Win32,60.0240096,,"[""return""]",0,[7.449999999999989],[null],0,30,30,10,1,Raupe,5,emo_mid,short_word,Fisch,5,ima_high,short_word
,,,MA01KA120624,2024-06-12_09h44.13.623,SNORE_recall_online,2023.1.3,Win32,60.0240096,,"[""return""]",0,[1.593999999999994],[null],0,31,31,16,1,Mammut,6,emo_mid,short_word,Otter,5,ima_high,short_word
,,,MA01KA120624,2024-06-12_09h44.13.623,SNORE_recall_online,2023.1.3,Win32,60.0240096,,"[""return""]",0,[1.7799999999999727],[null],0,32,32,27,1,Admiral,7,emo_mid,long_word,Thunfisch,9,ima_high,long_word
,,,MA01KA120624,2024-06-12_09h44.13.623,SNORE_recall_online,2023.1.3,Win32,60.0240096,,"[""return""]",0,[3.4629999999999654],[null],0,33,33,2,1,Hafer,5,emo_mid,short_word,Gras,4,ima_high,short_word
,,,MA01KA120624,2024-06-12_09h44.13.623,SNORE_recall_online,2023.1.3,Win32,60.0240096,,"[""return""]",0,[1.4180000000000064],[null],0,34,34,22,1,Zwiebel,7,emo_mid,long_word,Faultier,8,ima_high,long_word
,,,MA01KA120624,2024-06-12_09h44.13.623,SNORE_recall_online,2023.1.3,Win32,60.0240096,,"[""return""]",0,[2.018000000000029],[null],0,35,35,21,1,Gorilla,7,emo_mid,long_word,Seepferd,8,ima_high,long_word
,,,MA01KA120624,2024-06-12_09h44.13.623,SNORE_recall_online,2023.1.3,Win32,60.0240096,,,,,,,,,,,,,,,,,,
