key_resp.keys,key_resp.rt,key_resp.duration,participant,date,expName,psychopyVersion,OS,frameRate,Response.text,accept.keys,accept.corr,accept.rt,accept.duration,recall_loop.thisRepN,recall_loop.thisTrialN,recall_loop.thisN,recall_loop.thisIndex,recall_loop.ran,Word1,WORD_length1,Emo_condition,length_group_emo,Word2,WORD_length2,Ima_condition,length_group_ima,Randomize
return,2.7076,,TEST,2024-07-25_10h51.08.999,SNORE_recall_online,2023.1.3,MacIntel,61.34969325,,,,,,,,,,,,,,,,,,,
,,,TEST,2024-07-25_10h51.08.999,SNORE_recall_online,2023.1.3,MacIntel,61.34969325,Schnecke,"[""return""]",0,[3.401099999994039],[null],0,0,0,10,1,Nashorn,7,emo_mid,long_word,Schnecke,8,ima_high,long_word,TRUE
,,,TEST,2024-07-25_10h51.08.999,SNORE_recall_online,2023.1.3,MacIntel,61.34969325,Faultier,"[""return""]",0,[4.97239999997616],[null],0,1,1,7,1,Zwiebel,7,emo_mid,long_word,Faultier,8,ima_high,long_word,TRUE
,,,TEST,2024-07-25_10h51.08.999,SNORE_recall_online,2023.1.3,MacIntel,61.34969325,Frucht,"[""return""]",0,[2.5748999999761573],[null],0,2,2,6,1,Meise,5,emo_mid,short_word,Frucht,6,ima_high,short_word,TRUE
,,,TEST,2024-07-25_10h51.08.999,SNORE_recall_online,2023.1.3,MacIntel,61.34969325,Ei,"[""return""]",0,[15.543499999999998],[null],0,3,3,23,1,Gaul,4,emo_mid,short_word,Ei,2,ima_high,short_word,TRUE
,,,TEST,2024-07-25_10h51.08.999,SNORE_recall_online,2023.1.3,MacIntel,61.34969325,Larve,"[""return""]",0,[5.827200000017882],[null],0,4,4,5,1,Eule,4,emo_mid,short_word,Larve,5,ima_high,short_word,TRUE
,,,TEST,2024-07-25_10h51.08.999,SNORE_recall_online,2023.1.3,MacIntel,61.34969325,Bock,"[""return""]",0,[3.8567999999821225],[null],0,5,5,30,1,Quitte,6,emo_mid,short_word,Bock,4,ima_high,short_word,TRUE
,,,TEST,2024-07-25_10h51.08.999,SNORE_recall_online,2023.1.3,MacIntel,61.34969325,Sellerie,"[""return""]",0,[5.583900000005961],[null],0,6,6,12,1,Maikäfer,8,emo_mid,long_word,Sellerie,8,ima_high,long_word,TRUE
,,,TEST,2024-07-25_10h51.08.999,SNORE_recall_online,2023.1.3,MacIntel,61.34969325,Fledermaus,"[""return""]",0,[3.3000000000000043],[null],0,7,7,29,1,Säugetier,9,emo_mid,long_word,Fledermaus,10,ima_high,long_word,TRUE
,,,TEST,2024-07-25_10h51.08.999,SNORE_recall_online,2023.1.3,MacIntel,61.34969325,Hengst,"[""return""]",0,[3.6229000000059557],[null],0,8,8,15,1,Käfer,5,emo_mid,short_word,Hengst,6,ima_high,short_word,TRUE
,,,TEST,2024-07-25_10h51.08.999,SNORE_recall_online,2023.1.3,MacIntel,61.34969325,Spargel,"[""return""]",0,[4.244800000011921],[null],0,9,9,8,1,Knoblauch,9,emo_mid,long_word,Spargel,7,ima_high,long_word,TRUE
,,,TEST,2024-07-25_10h51.08.999,SNORE_recall_online,2023.1.3,MacIntel,61.34969325,Brombeere,"[""return""]",0,[3.3080999999940417],[null],0,10,10,0,1,Spore,5,emo_mid,short_word,Bulle,5,ima_high,short_word,TRUE
,,,TEST,2024-07-25_10h51.08.999,SNORE_recall_online,2023.1.3,MacIntel,61.34969325,Brombeere,"[""return""]",0,[4.695099999994042],[null],0,11,11,3,1,Sprosse,7,emo_mid,long_word,Brombeere,9,ima_high,long_word,TRUE
,,,TEST,2024-07-25_10h51.08.999,SNORE_recall_online,2023.1.3,MacIntel,61.34969325,Blutegel,"[""return""]",0,[10.2975],[null],0,12,12,19,1,Habicht,7,emo_mid,long_word,Blutegel,8,ima_high,long_word,TRUE
,,,TEST,2024-07-25_10h51.08.999,SNORE_recall_online,2023.1.3,MacIntel,61.34969325,Motte,"[""return""]",0,[2.451400000005961],[null],0,13,13,17,1,Geier,5,emo_mid,short_word,Motte,5,ima_high,short_word,TRUE
,,,TEST,2024-07-25_10h51.08.999,SNORE_recall_online,2023.1.3,MacIntel,61.34969325,Ente,"[""return""]",0,[10.892599999994047],[null],0,14,14,24,1,Zeder,5,emo_mid,short_word,Ente,4,ima_high,short_word,TRUE
,,,TEST,2024-07-25_10h51.08.999,SNORE_recall_online,2023.1.3,MacIntel,61.34969325,Reptil,"[""return""]",0,[4.927599999994044],[null],0,15,15,1,1,Kiwi,4,emo_mid,short_word,Reptil,6,ima_high,short_word,TRUE
,,,TEST,2024-07-25_10h51.08.999,SNORE_recall_online,2023.1.3,MacIntel,61.34969325,Buche,"[""return""]",0,[2.513200000017875],[null],0,16,16,27,1,Wolf,4,emo_mid,short_word,Buche,5,ima_high,short_word,TRUE
,,,TEST,2024-07-25_10h51.08.999,SNORE_recall_online,2023.1.3,MacIntel,61.34969325,Pfau,"[""return""]",0,[3.3671000000238394],[null],0,17,17,20,1,Vieh,4,emo_mid,short_word,Pfau,4,ima_high,short_word,TRUE
,,,TEST,2024-07-25_10h51.08.999,SNORE_recall_online,2023.1.3,MacIntel,61.34969325,Rebhuhn,"[""return""]",0,[9.474000000000018],[null],0,18,18,32,1,Strauch,7,emo_mid,long_word,Rebhuhn,7,ima_high,long_word,TRUE
,,,TEST,2024-07-25_10h51.08.999,SNORE_recall_online,2023.1.3,MacIntel,61.34969325,Schlange,"[""return""]",0,[3.8502999999820986],[null],0,19,19,25,1,Walross,7,emo_mid,long_word,Schlange,8,ima_high,long_word,TRUE
,,,TEST,2024-07-25_10h51.08.999,SNORE_recall_online,2023.1.3,MacIntel,61.34969325,Rosenkohl,"[""return""]",0,[5.193700000017884],[null],0,20,20,26,1,Dromedar,8,emo_mid,long_word,Rosenkohl,9,ima_high,long_word,TRUE
,,,TEST,2024-07-25_10h51.08.999,SNORE_recall_online,2023.1.3,MacIntel,61.34969325,Ratte,"[""return""]",0,[3.4974000000059675],[null],0,21,21,13,1,Lurch,5,emo_mid,short_word,Ratte,5,ima_high,short_word,TRUE
,,,TEST,2024-07-25_10h51.08.999,SNORE_recall_online,2023.1.3,MacIntel,61.34969325,Raupe,"[""return""]",0,[7.729500000000002],[null],0,22,22,16,1,Barsch,6,emo_mid,short_word,Tiger,5,ima_high,short_word,TRUE
,,,TEST,2024-07-25_10h51.08.999,SNORE_recall_online,2023.1.3,MacIntel,61.34969325,Stinktier,"[""return""]",0,[14.294900000005953],[null],0,23,23,31,1,Eidechse,8,emo_mid,long_word,Stinktier,9,ima_high,long_word,TRUE
,,,TEST,2024-07-25_10h51.08.999,SNORE_recall_online,2023.1.3,MacIntel,61.34969325,Krähe,"[""return""]",0,[3.3108000000119375],[null],0,24,24,18,1,Busch,5,emo_mid,short_word,Krähe,5,ima_high,short_word,TRUE
,,,TEST,2024-07-25_10h51.08.999,SNORE_recall_online,2023.1.3,MacIntel,61.34969325,Seepferdchen,"[""return""]",0,[4.477699999988062],[null],0,25,25,22,1,Gorilla,7,emo_mid,long_word,Seepferd,8,ima_high,long_word,TRUE
,,,TEST,2024-07-25_10h51.08.999,SNORE_recall_online,2023.1.3,MacIntel,61.34969325,Walnuss,"[""return""]",0,[3.1939000000059536],[null],0,26,26,4,1,Lorbeer,7,emo_mid,long_word,Walnuss,7,ima_high,long_word,TRUE
,,,TEST,2024-07-25_10h51.08.999,SNORE_recall_online,2023.1.3,MacIntel,61.34969325,Seeigel,"[""return""]",0,[5.177099999994027],[null],0,27,27,34,1,Krokodil,8,emo_mid,long_word,Seeigel,7,ima_high,long_word,TRUE
,,,TEST,2024-07-25_10h51.08.999,SNORE_recall_online,2023.1.3,MacIntel,61.34969325,Otter,"[""return""]",0,[2.5629000000059534],[null],0,28,28,33,1,Mammut,6,emo_mid,short_word,Otter,5,ima_high,short_word,TRUE
,,,TEST,2024-07-25_10h51.08.999,SNORE_recall_online,2023.1.3,MacIntel,61.34969325,Amsel,"[""return""]",0,[4.7828000000119175],[null],0,29,29,9,1,Kuh,4,emo_mid,short_word,Amsel,5,ima_high,short_word,TRUE
,,,TEST,2024-07-25_10h51.08.999,SNORE_recall_online,2023.1.3,MacIntel,61.34969325,Wildkatze,"[""return""]",0,[6.34469999998808],[null],0,30,30,35,1,Raubtier,8,emo_mid,long_word,Wildkatze,9,ima_high,long_word,TRUE
,,,TEST,2024-07-25_10h51.08.999,SNORE_recall_online,2023.1.3,MacIntel,61.34969325,Getreide,"[""return""]",0,[2.9592999999821075],[null],0,31,31,21,1,Languste,8,emo_mid,long_word,Getreide,8,ima_high,long_word,TRUE
,,,TEST,2024-07-25_10h51.08.999,SNORE_recall_online,2023.1.3,MacIntel,61.34969325,Fisch,"[""return""]",0,[4.1294000000059725],[null],0,32,32,11,1,Raupe,5,emo_mid,short_word,Fisch,5,ima_high,short_word,TRUE
,,,TEST,2024-07-25_10h51.08.999,SNORE_recall_online,2023.1.3,MacIntel,61.34969325,Karpfen,"[""return""]",0,[12.961400000005966],[null],0,33,33,14,1,Maulwurf,8,emo_mid,long_word,Karpfen,7,ima_high,long_word,TRUE
,,,TEST,2024-07-25_10h51.08.999,SNORE_recall_online,2023.1.3,MacIntel,61.34969325,,"[""return""]",0,[7.795300000011906],[null],0,34,34,2,1,Hafer,5,emo_mid,short_word,Gras,4,ima_high,short_word,TRUE
,,,TEST,2024-07-25_10h51.08.999,SNORE_recall_online,2023.1.3,MacIntel,61.34969325,,"[""return""]",0,[3.2895999999940386],[null],0,35,35,28,1,Kolibri,7,emo_mid,long_word,Thunfisch,9,ima_high,long_word,TRUE
,,,TEST,2024-07-25_10h51.08.999,SNORE_recall_online,2023.1.3,MacIntel,61.34969325,,,,,,,,,,,,,,,,,,,
